condsFile,readyMsg,stimFile,blocks.thisRepN,blocks.thisTrialN,blocks.thisN,blocks.thisIndex,trials.thisRepN,trials.thisTrialN,trials.thisN,trials.thisIndex,text.started,text.stopped,image.started,image.stopped,rating.response,rating.rt,rating.started,rating.stopped,text_2.started,text_2.stopped,session,participant,date,expName,psychopyVersion,frameRate,
imageBlock.csv,Get Ready to Classify a Bunch of Images!,stims/1100_7.png,0,0,0,0,0,0,0,10,44.750720918003935,None,46.08540791802807,46.19942407304188,7,6.675,1.0169899307657033,None,46.767573129036464,None,001,12,2020_Feb_28_1447,blockedTrials,2020.1.1,None,
imageBlock.csv,Get Ready to Classify a Bunch of Images!,stims/7811_0.png,0,0,0,0,0,1,1,53,,,53.76563416403951,53.88190099800704,0,6.061,1.0015911511727609,None,54.46601635002298,None,001,12,2020_Feb_28_1447,blockedTrials,2020.1.1,None,
imageBlock.csv,Get Ready to Classify a Bunch of Images!,stims/7638_1.png,0,0,0,0,0,2,2,51,,,60.84844094904838,60.963467433000915,1,2.841,1.0031206001876853,None,61.549198608030565,None,001,12,2020_Feb_28_1447,blockedTrials,2020.1.1,None,
imageBlock.csv,Get Ready to Classify a Bunch of Images!,stims/7088_8.png,0,0,0,0,0,3,3,45,,,64.71496049902635,64.82986617804272,8,3.826,1.0027432311908342,None,65.41577757603955,None,001,12,2020_Feb_28_1447,blockedTrials,2020.1.1,None,
imageBlock.csv,Get Ready to Classify a Bunch of Images!,stims/9291_8.png,0,0,0,0,0,4,4,59,,,69.5651350710541,69.66452054202091,0,5.86,1.003147486189846,None,70.26566102402285,None,001,12,2020_Feb_28_1447,blockedTrials,2020.1.1,None,
imageBlock.csv,Get Ready to Classify a Bunch of Images!,stims/2663_7.png,0,0,0,0,0,5,5,19,,,76.44781657605199,76.5631125390064,7,1.442,1.0021147771622054,None,77.14883620903129,None,001,12,2020_Feb_28_1447,blockedTrials,2020.1.1,None,
imageBlock.csv,Get Ready to Classify a Bunch of Images!,stims/6170_2.png,0,0,0,0,0,6,6,35,,,78.915173728019,79.01238960004412,2,1.626,1.0037577492184937,None,79.61546201305464,None,001,12,2020_Feb_28_1447,blockedTrials,2020.1.1,None,
imageBlock.csv,Get Ready to Classify a Bunch of Images!,stims/7217_8.png,0,0,0,0,0,7,7,46,,,81.56539198104292,81.67966875503771,8,2.91,1.0035380882327445,None,82.26540422299877,None,001,12,2020_Feb_28_1447,blockedTrials,2020.1.1,None,
imageBlock.csv,Get Ready to Classify a Bunch of Images!,stims/3456_3.png,0,0,0,0,0,8,8,22,,,85.49864177103154,85.6128893950372,3,1.393,1.004010457196273,None,86.19866715400713,None,001,12,2020_Feb_28_1447,blockedTrials,2020.1.1,None,
imageBlock.csv,Get Ready to Classify a Bunch of Images!,stims/6443_6.png,0,0,0,0,0,9,9,38,,,87.91526739101391,88.02953459805576,4,4.724,1.003489108174108,None,88.6154057130334,None,001,12,2020_Feb_28_1447,blockedTrials,2020.1.1,None,
imageBlock.csv,Get Ready to Classify a Bunch of Images!,stims/9086_0.png,0,0,0,0,0,10,10,57,,,93.66513569204835,93.78008889302146,0,1.427,1.00335203029681,None,94.36509561201092,None,001,12,2020_Feb_28_1447,blockedTrials,2020.1.1,None,
imageBlock.csv,Get Ready to Classify a Bunch of Images!,stims/6362_4.png,0,0,0,0,0,11,11,37,,,96.11627183802193,96.2285739640356,4,2.659,1.0025955341989174,None,96.81507233704906,None,001,12,2020_Feb_28_1447,blockedTrials,2020.1.1,None,
imageBlock.csv,Get Ready to Classify a Bunch of Images!,stims/5772_9.png,0,0,0,0,0,12,12,30,,,99.79836515104398,99.91258873703191,9,1.493,1.0025752482470125,None,100.49840262904763,None,001,12,2020_Feb_28_1447,blockedTrials,2020.1.1,None,
imageBlock.csv,Get Ready to Classify a Bunch of Images!,stims/2_8.png,0,0,0,0,0,13,13,0,,,102.31417698902078,102.42956049804343,8,1.708,1.0031423852196895,None,103.01492455700645,None,001,12,2020_Feb_28_1447,blockedTrials,2020.1.1,None,
imageBlock.csv,Get Ready to Classify a Bunch of Images!,stims/5324_2.png,0,0,0,0,0,14,14,28,,,105.04824923502747,105.16197121201549,1,9.524,1.0027737522032112,None,105.74802172603086,None,001,12,2020_Feb_28_1447,blockedTrials,2020.1.1,None,
imageBlock.csv,Get Ready to Classify a Bunch of Images!,stims/6522_9.png,0,0,0,0,0,15,15,40,,,115.59773909603246,115.71142664703075,1,0.627,1.003366413176991,None,116.29806944204029,None,001,12,2020_Feb_28_1447,blockedTrials,2020.1.1,None,
imageBlock.csv,Get Ready to Classify a Bunch of Images!,stims/5549_5.png,0,0,0,0,0,16,16,29,,,117.24704934703186,117.3459938900196,5,2.727,1.0027843832504004,None,117.94792805000907,None,001,12,2020_Feb_28_1447,blockedTrials,2020.1.1,None,
imageBlock.csv,Get Ready to Classify a Bunch of Images!,stims/5986_3.png,0,0,0,0,0,17,17,31,,,120.99788907001493,121.09792144200765,5,0.976,1.0026760212494992,None,121.69788882002467,None,001,12,2020_Feb_28_1447,blockedTrials,2020.1.1,None,
imageBlock.csv,Get Ready to Classify a Bunch of Images!,stims/1709_2.png,0,0,0,0,0,18,18,13,,,122.99731534603052,123.09483050904237,2,1.51,1.00381165422732,None,123.69782710401341,None,001,12,2020_Feb_28_1447,blockedTrials,2020.1.1,None,
imageBlock.csv,Get Ready to Classify a Bunch of Images!,stims/5246_7.png,0,0,0,0,0,19,19,27,,,125.53066705603851,125.62798166205175,7,0.991,1.0040511072147638,None,126.23111186805181,None,001,12,2020_Feb_28_1447,blockedTrials,2020.1.1,None,
imageBlock.csv,Get Ready to Classify a Bunch of Images!,stims/3615_6.png,0,0,0,0,0,20,20,23,,,127.54686197801493,127.66112204903038,6,1.361,1.0021820732508786,None,128.24684517103015,None,001,12,2020_Feb_28_1447,blockedTrials,2020.1.1,None,
imageBlock.csv,Get Ready to Classify a Bunch of Images!,stims/925_5.png,0,0,0,0,0,21,21,7,,,129.9310305630206,130.03110489301616,3,2.577,1.0037651261663996,None,130.63102276501013,None,001,12,2020_Feb_28_1447,blockedTrials,2020.1.1,None,
imageBlock.csv,Get Ready to Classify a Bunch of Images!,stims/4864_3.png,0,0,0,0,0,22,22,26,,,133.5309292190359,133.6301443730481,6,1.959,1.0040511341649108,None,134.23088060005102,None,001,12,2020_Feb_28_1447,blockedTrials,2020.1.1,None,
imageBlock.csv,Get Ready to Classify a Bunch of Images!,stims/1493_1.png,0,0,0,0,0,23,23,11,,,136.51432768604718,136.63089087902335,1,1.827,1.0033522242447361,None,137.21418465301394,None,001,12,2020_Feb_28_1447,blockedTrials,2020.1.1,None,
imageBlock.csv,Get Ready to Classify a Bunch of Images!,stims/1742_8.png,0,0,0,0,0,24,24,14,,,139.36458434700035,139.4785084220348,8,1.294,1.0030606572399847,None,140.0644619220402,None,001,12,2020_Feb_28_1447,blockedTrials,2020.1.1,None,
imageBlock.csv,Get Ready to Classify a Bunch of Images!,stims/6753_4.png,0,0,0,0,0,25,25,43,,,141.6807771930471,141.79419276700355,6,1.827,1.001262177247554,None,142.3799221800291,None,001,12,2020_Feb_28_1447,blockedTrials,2020.1.1,None,
imageBlock.csv,Get Ready to Classify a Bunch of Images!,stims/805_4.png,0,0,0,0,0,26,26,5,,,144.53078678704333,144.62801698304247,4,3.027,1.003060095186811,None,145.23075624502962,None,001,12,2020_Feb_28_1447,blockedTrials,2020.1.1,None,
imageBlock.csv,Get Ready to Classify a Bunch of Images!,stims/2186_9.png,0,0,0,0,0,27,27,16,,,148.5798642160371,148.69494818302337,1,0.827,1.0032394341542386,None,149.28072214103304,None,001,12,2020_Feb_28_1447,blockedTrials,2020.1.1,None,
imageBlock.csv,Get Ready to Classify a Bunch of Images!,stims/6149_7.png,0,0,0,0,0,28,28,34,,,150.43065892904997,150.5446485040011,7,1.044,1.0033350442536175,None,151.13060248701368,None,001,12,2020_Feb_28_1447,blockedTrials,2020.1.1,None,
imageBlock.csv,Get Ready to Classify a Bunch of Images!,stims/2405_3.png,0,0,0,0,0,29,29,17,,,152.49727604101645,152.6107431400451,6,1.244,1.003136509214528,None,153.1972289320547,None,001,12,2020_Feb_28_1447,blockedTrials,2020.1.1,None,
imageBlock.csv,Get Ready to Classify a Bunch of Images!,stims/6504_7.png,0,0,0,0,0,30,30,39,,,154.7637704210356,154.8773403800442,7,1.061,1.0049443941679783,None,155.4639828170184,None,001,12,2020_Feb_28_1447,blockedTrials,2020.1.1,None,
imageBlock.csv,Get Ready to Classify a Bunch of Images!,stims/6300_1.png,0,0,0,0,0,31,31,36,,,156.8464070520131,156.96053404500708,1,1.727,1.0042772922315635,None,157.54640912701143,None,001,12,2020_Feb_28_1447,blockedTrials,2020.1.1,None,
imageBlock.csv,Get Ready to Classify a Bunch of Images!,stims/972_2.png,0,0,0,0,0,32,32,8,,,159.5963319990551,159.71062002901454,5,1.775,1.0035987392184325,None,160.29708015103824,None,001,12,2020_Feb_28_1447,blockedTrials,2020.1.1,None,
imageBlock.csv,Get Ready to Classify a Bunch of Images!,stims/839_2.png,0,0,0,0,0,33,33,6,,,162.39709121600026,162.51051609404385,2,0.961,1.0064985612407327,None,163.09602866100613,None,001,12,2020_Feb_28_1447,blockedTrials,2020.1.1,None,
imageBlock.csv,Get Ready to Classify a Bunch of Images!,stims/6104_1.png,0,0,0,0,0,34,34,33,,,164.38048536604038,164.4945803900482,1,0.573,1.0052473122486845,None,165.0816880830098,None,001,12,2020_Feb_28_1447,blockedTrials,2020.1.1,None,
imageBlock.csv,Get Ready to Classify a Bunch of Images!,stims/7539_5.png,0,0,0,0,0,35,35,49,,,165.98049517301843,166.09372466400964,3,1.859,1.0030570752569474,None,166.68029546004254,None,001,12,2020_Feb_28_1447,blockedTrials,2020.1.1,None,
imageBlock.csv,Get Ready to Classify a Bunch of Images!,stims/772_6.png,0,0,0,0,0,36,36,4,,,168.86342420702567,168.97712024801876,6,1.925,1.0025123112136498,None,169.56359751801938,None,001,12,2020_Feb_28_1447,blockedTrials,2020.1.1,None,
imageBlock.csv,Get Ready to Classify a Bunch of Images!,stims/9166_6.png,0,0,0,0,0,37,37,58,,,171.81356934603537,171.92700650903862,6,0.525,1.0029030041769147,None,172.51347578503191,None,001,12,2020_Feb_28_1447,blockedTrials,2020.1.1,None,
imageBlock.csv,Get Ready to Classify a Bunch of Images!,stims/7669_7.png,0,0,0,0,0,38,38,52,,,173.36354188004043,173.4768883040524,7,1.226,1.0032388461986557,None,174.06356948701432,None,001,12,2020_Feb_28_1447,blockedTrials,2020.1.1,None,
imageBlock.csv,Get Ready to Classify a Bunch of Images!,stims/2445_6.png,0,0,0,0,0,39,39,18,,,175.61340809601825,175.72766145999776,6,1.326,1.0014272052212618,None,176.31262411101488,None,001,12,2020_Feb_28_1447,blockedTrials,2020.1.1,None,
imageBlock.csv,Get Ready to Classify a Bunch of Images!,stims/4139_5.png,0,0,0,0,0,40,40,25,,,177.96335388103034,178.06258579500718,3,1.627,1.0028326132451184,None,178.6633345230366,None,001,12,2020_Feb_28_1447,blockedTrials,2020.1.1,None,
imageBlock.csv,Get Ready to Classify a Bunch of Images!,stims/1912_0.png,0,0,0,0,0,41,41,15,,,180.61252366000554,180.7267172910506,2,1.676,1.0028138851630501,None,181.3132804330089,None,001,12,2020_Feb_28_1447,blockedTrials,2020.1.1,None,
imageBlock.csv,Get Ready to Classify a Bunch of Images!,stims/95_6.png,0,0,0,0,0,42,42,1,,,183.31321946001844,183.42876326205442,6,1.827,1.0019127852283418,None,184.0125037280377,None,001,12,2020_Feb_28_1447,blockedTrials,2020.1.1,None,
imageBlock.csv,Get Ready to Classify a Bunch of Images!,stims/267_4.png,0,0,0,0,0,43,43,2,,,186.16303232102655,186.27639917703345,4,1.16,1.0023722461774014,None,186.8623783570365,None,001,12,2020_Feb_28_1447,blockedTrials,2020.1.1,None,
imageBlock.csv,Get Ready to Classify a Bunch of Images!,stims/8195_8.png,0,0,0,0,0,44,44,55,,,188.34637530404143,188.46156123600667,8,1.126,1.0043771982309408,None,189.04569870402338,None,001,12,2020_Feb_28_1447,blockedTrials,2020.1.1,None,
imageBlock.csv,Get Ready to Classify a Bunch of Images!,stims/7863_0.png,0,0,0,0,0,45,45,54,,,190.49584990902804,190.61020337004447,0,1.76,1.0041663132142276,None,191.1963520660065,None,001,12,2020_Feb_28_1447,blockedTrials,2020.1.1,None,
imageBlock.csv,Get Ready to Classify a Bunch of Images!,stims/7578_9.png,0,0,0,0,0,46,46,50,,,193.27969331800705,193.39315997203812,9,1.226,1.0022659912356175,None,193.97947119601304,None,001,12,2020_Feb_28_1447,blockedTrials,2020.1.1,None,
imageBlock.csv,Get Ready to Classify a Bunch of Images!,stims/6802_4.png,0,0,0,0,0,47,47,44,,,195.5295019900077,195.64610045502195,4,2.381,1.0028470462420955,None,196.22988487104885,None,001,12,2020_Feb_28_1447,blockedTrials,2020.1.1,None,
imageBlock.csv,Get Ready to Classify a Bunch of Images!,stims/6550_1.png,0,0,0,0,0,48,48,41,,,198.9459609980113,199.0447292610188,1,0.871,1.0063359212363139,None,199.63340578600764,None,001,12,2020_Feb_28_1447,blockedTrials,2020.1.1,None,
imageBlock.csv,Get Ready to Classify a Bunch of Images!,stims/7433_5.png,0,0,0,0,0,49,49,48,,,200.82868926605443,200.94293735700194,5,2.075,1.0021701312507503,None,201.529641835019,None,001,12,2020_Feb_28_1447,blockedTrials,2020.1.1,None,
imageBlock.csv,Get Ready to Classify a Bunch of Images!,stims/1072_0.png,0,0,0,0,0,50,50,9,,,203.92937631404493,204.02943138603587,0,1.126,1.0027560862363316,None,204.62943026103312,None,001,12,2020_Feb_28_1447,blockedTrials,2020.1.1,None,
imageBlock.csv,Get Ready to Classify a Bunch of Images!,stims/6557_9.png,0,0,0,0,0,51,51,42,,,206.07886389503255,206.19281080900691,9,1.125,1.0029928502626717,None,206.77939388900995,None,001,12,2020_Feb_28_1447,blockedTrials,2020.1.1,None,
imageBlock.csv,Get Ready to Classify a Bunch of Images!,stims/6075_3.png,0,0,0,0,0,52,52,32,,,208.2295000050217,208.34281952300807,6,2.345,1.0035774892312475,None,208.92903841804946,None,001,12,2020_Feb_28_1447,blockedTrials,2020.1.1,None,
imageBlock.csv,Get Ready to Classify a Bunch of Images!,stims/2938_2.png,0,0,0,0,0,53,53,21,,,211.59586915001273,211.6950244550244,2,1.627,1.0036874642246403,None,212.29593896702863,None,001,12,2020_Feb_28_1447,blockedTrials,2020.1.1,None,
imageBlock.csv,Get Ready to Classify a Bunch of Images!,stims/1650_5.png,0,0,0,0,0,54,54,12,,,214.24569228303153,214.34343841904774,5,1.293,1.0034035602002405,None,214.94582591002109,None,001,12,2020_Feb_28_1447,blockedTrials,2020.1.1,None,
imageBlock.csv,Get Ready to Classify a Bunch of Images!,stims/673_3.png,0,0,0,0,0,55,55,3,,,216.56293760001427,216.67601138399914,3,1.261,1.0034679531818256,None,217.26286261802306,None,001,12,2020_Feb_28_1447,blockedTrials,2020.1.1,None,
imageBlock.csv,Get Ready to Classify a Bunch of Images!,stims/7410_4.png,0,0,0,0,0,56,56,47,,,218.84565948601812,218.94333658000687,5,4.693,1.0042710172128864,None,219.54542016901542,None,001,12,2020_Feb_28_1447,blockedTrials,2020.1.1,None,
imageBlock.csv,Get Ready to Classify a Bunch of Images!,stims/2704_0.png,0,0,0,0,0,57,57,20,,,224.56228507804917,224.67578403104562,0,1.36,1.0030146901845,None,225.26271865004674,None,001,12,2020_Feb_28_1447,blockedTrials,2020.1.1,None,
imageBlock.csv,Get Ready to Classify a Bunch of Images!,stims/3982_9.png,0,0,0,0,0,58,58,24,,,226.94534009799827,227.05905437102774,9,1.024,1.0025277722161263,None,227.64556087105302,None,001,12,2020_Feb_28_1447,blockedTrials,2020.1.1,None,
imageBlock.csv,Get Ready to Classify a Bunch of Images!,stims/8645_1.png,0,0,0,0,0,59,59,56,,,228.99516640399816,229.10895952302963,1,0.81,1.003457541228272,None,229.69552599801682,None,001,12,2020_Feb_28_1447,blockedTrials,2020.1.1,None,
