condsFile,readyMsg,stimFile,blocks.thisRepN,blocks.thisTrialN,blocks.thisN,blocks.thisIndex,trials.thisRepN,trials.thisTrialN,trials.thisN,trials.thisIndex,text.started,text.stopped,image.started,image.stopped,rating.response,rating.rt,rating.started,rating.stopped,text_2.started,text_2.stopped,session,participant,date,expName,psychopyVersion,frameRate,
imageBlock.csv,Get Ready to Classify a Bunch of Images!,stims/95_6.png,0,0,0,0,0,0,0,1,20.385006791038904,None,21.721466270042583,21.832761088036932,9,22.408,1.0123609524453059,None,22.416223952022847,32.43472215603106,001,15,2020_Feb_28_1459,blockedTrials,2020.1.1,60.874932637768744,
imageBlock.csv,Get Ready to Classify a Bunch of Images!,stims/8645_1.png,0,0,0,0,0,1,1,56,,,45.148785634024534,45.24883718800265,1,7.361,1.002204920456279,None,45.850411557010375,None,001,15,2020_Feb_28_1459,blockedTrials,2020.1.1,60.874932637768744,
imageBlock.csv,Get Ready to Classify a Bunch of Images!,stims/7638_1.png,0,0,0,0,0,2,2,51,,,53.5319652199978,53.631982771039475,1,9.825,1.0021325785201043,None,54.23273384501226,None,001,15,2020_Feb_28_1459,blockedTrials,2020.1.1,60.874932637768744,
imageBlock.csv,Get Ready to Classify a Bunch of Images!,stims/2_8.png,0,0,0,0,0,3,3,0,,,64.38248447101796,64.4815966260503,8,4.063,1.001771682407707,None,65.08250030700583,None,001,15,2020_Feb_28_1459,blockedTrials,2020.1.1,60.874932637768744,
imageBlock.csv,Get Ready to Classify a Bunch of Images!,stims/3615_6.png,0,0,0,0,0,4,4,23,,,69.46499813202536,69.56498756405199,3,7.06,1.00288146850653,None,70.16568488901248,None,001,15,2020_Feb_28_1459,blockedTrials,2020.1.1,60.874932637768744,
imageBlock.csv,Get Ready to Classify a Bunch of Images!,stims/6522_9.png,0,0,0,0,0,5,5,40,,,77.54865841404535,77.64815444004489,1,1.795,1.0032364325015806,None,78.24889036704553,None,001,15,2020_Feb_28_1459,blockedTrials,2020.1.1,60.874932637768744,
imageBlock.csv,Get Ready to Classify a Bunch of Images!,stims/8195_8.png,0,0,0,0,0,6,6,55,,,80.36662601004355,80.48123546503484,8,3.209,1.0009185504750349,None,81.06470312201418,None,001,15,2020_Feb_28_1459,blockedTrials,2020.1.1,60.874932637768744,
imageBlock.csv,Get Ready to Classify a Bunch of Images!,stims/2186_9.png,0,0,0,0,0,7,7,16,,,84.59795748401666,84.69801249803277,9,3.578,1.0018697674386203,None,85.2986095820088,None,001,15,2020_Feb_28_1459,blockedTrials,2020.1.1,60.874932637768744,
imageBlock.csv,Get Ready to Classify a Bunch of Images!,stims/5324_2.png,0,0,0,0,0,8,8,28,,,89.19769805000396,89.29786169802537,2,2.912,1.0028182794922031,None,89.89838088204851,None,001,15,2020_Feb_28_1459,blockedTrials,2020.1.1,60.874932637768744,
imageBlock.csv,Get Ready to Classify a Bunch of Images!,stims/6362_4.png,0,0,0,0,0,9,9,37,,,93.13458283402724,93.24776974401902,4,3.114,1.000196531531401,None,93.83109921205323,None,001,15,2020_Feb_28_1459,blockedTrials,2020.1.1,60.874932637768744,
imageBlock.csv,Get Ready to Classify a Bunch of Images!,stims/1912_0.png,0,0,0,0,0,10,10,15,,,97.26516292605083,97.36432911700103,0,3.96,1.0019515255116858,None,97.96512144204462,None,001,15,2020_Feb_28_1459,blockedTrials,2020.1.1,60.874932637768744,
imageBlock.csv,Get Ready to Classify a Bunch of Images!,stims/7669_7.png,0,0,0,0,0,11,11,52,,,102.24904730502749,102.3475698880502,4,2.16,1.0166995534673333,None,102.96540197602008,None,001,15,2020_Feb_28_1459,blockedTrials,2020.1.1,60.874932637768744,
imageBlock.csv,Get Ready to Classify a Bunch of Images!,stims/2663_7.png,0,0,0,0,0,12,12,19,,,105.44802220602287,105.5475181619986,7,3.492,1.0028601994854398,None,106.14826349104987,None,001,15,2020_Feb_28_1459,blockedTrials,2020.1.1,60.874932637768744,
imageBlock.csv,Get Ready to Classify a Bunch of Images!,stims/7539_5.png,0,0,0,0,0,13,13,49,,,109.96407105604885,110.06404632900376,5,6.245,1.0035416924511082,None,110.66681932104984,None,001,15,2020_Feb_28_1459,blockedTrials,2020.1.1,60.874932637768744,
imageBlock.csv,Get Ready to Classify a Bunch of Images!,stims/925_5.png,0,0,0,0,0,14,14,7,,,117.23138070903951,117.33062059502117,3,4.658,1.0045171465026215,None,117.93411628704052,None,001,15,2020_Feb_28_1459,blockedTrials,2020.1.1,60.874932637768744,
imageBlock.csv,Get Ready to Classify a Bunch of Images!,stims/4864_3.png,0,0,0,0,0,15,15,26,,,122.91381491505308,123.0137709749979,6,12.677,1.0031300084665418,None,123.61466098704841,133.63121696101734,001,15,2020_Feb_28_1459,blockedTrials,2020.1.1,60.874932637768744,
imageBlock.csv,Get Ready to Classify a Bunch of Images!,stims/6802_4.png,0,0,0,0,0,16,16,44,,,136.6154188500368,136.73090457404032,4,2.594,1.0004578135558404,None,137.3142297580489,None,001,15,2020_Feb_28_1459,blockedTrials,2020.1.1,60.874932637768744,
imageBlock.csv,Get Ready to Classify a Bunch of Images!,stims/6557_9.png,0,0,0,0,0,17,17,42,,,140.23123525304254,140.3467566940235,9,2.512,0.9999598124995828,None,140.93080468603875,None,001,15,2020_Feb_28_1459,blockedTrials,2020.1.1,60.874932637768744,
imageBlock.csv,Get Ready to Classify a Bunch of Images!,stims/5986_3.png,0,0,0,0,0,18,18,31,,,143.76645941502647,143.88078107702313,3,2.142,0.9997034755069762,None,144.46390390599845,None,001,15,2020_Feb_28_1459,blockedTrials,2020.1.1,60.874932637768744,
imageBlock.csv,Get Ready to Classify a Bunch of Images!,stims/6550_1.png,0,0,0,0,0,19,19,41,,,146.92995754402364,147.03102109604515,1,2.045,1.0002348894486204,None,147.63064691005275,None,001,15,2020_Feb_28_1459,blockedTrials,2020.1.1,60.874932637768744,
imageBlock.csv,Get Ready to Classify a Bunch of Images!,stims/6443_6.png,0,0,0,0,0,20,20,38,,,149.99726255901624,150.09638034604723,6,3.578,1.002118980512023,None,150.6972752280417,None,001,15,2020_Feb_28_1459,blockedTrials,2020.1.1,60.874932637768744,
imageBlock.csv,Get Ready to Classify a Bunch of Images!,stims/3982_9.png,0,0,0,0,0,21,21,24,,,154.61331670201616,154.71260476805037,9,2.028,0.9991786944447085,None,155.29637744900538,None,001,15,2020_Feb_28_1459,blockedTrials,2020.1.1,60.874932637768744,
imageBlock.csv,Get Ready to Classify a Bunch of Images!,stims/6104_1.png,0,0,0,0,0,22,22,33,,,157.64482061000308,157.74634818703635,1,1.929,1.0036282734945416,None,158.34666546602966,None,001,15,2020_Feb_28_1459,blockedTrials,2020.1.1,60.874932637768744,
imageBlock.csv,Get Ready to Classify a Bunch of Images!,stims/7863_0.png,0,0,0,0,0,23,23,54,,,160.61373806803022,160.7129430420464,0,2.828,1.0161347615066916,None,161.29626461100997,None,001,15,2020_Feb_28_1459,blockedTrials,2020.1.1,60.874932637768744,
imageBlock.csv,Get Ready to Classify a Bunch of Images!,stims/7578_9.png,0,0,0,0,0,24,24,50,,,164.47947499802103,164.57950654404704,9,2.145,1.0154426034423523,None,165.18009430501843,None,001,15,2020_Feb_28_1459,blockedTrials,2020.1.1,60.874932637768744,
imageBlock.csv,Get Ready to Classify a Bunch of Images!,stims/7811_0.png,0,0,0,0,0,25,25,53,,,167.65018034301465,167.7627861869987,0,2.128,1.0162429414922372,None,168.36332100903383,None,001,15,2020_Feb_28_1459,blockedTrials,2020.1.1,60.874932637768744,
imageBlock.csv,Get Ready to Classify a Bunch of Images!,stims/1100_7.png,0,0,0,0,0,26,26,10,,,170.81269530003192,170.91348912304966,7,2.411,1.003142808447592,None,171.5134519310086,None,001,15,2020_Feb_28_1459,blockedTrials,2020.1.1,60.874932637768744,
imageBlock.csv,Get Ready to Classify a Bunch of Images!,stims/6170_2.png,0,0,0,0,0,27,27,35,,,174.24955297500128,174.36344961001305,2,2.046,0.999759282451123,None,174.9465768870432,None,001,15,2020_Feb_28_1459,blockedTrials,2020.1.1,60.874932637768744,
imageBlock.csv,Get Ready to Classify a Bunch of Images!,stims/6753_4.png,0,0,0,0,0,28,28,43,,,177.31254588405136,177.41255020501558,7,2.46,1.0006283714901656,None,178.01334424002562,None,001,15,2020_Feb_28_1459,blockedTrials,2020.1.1,60.874932637768744,
imageBlock.csv,Get Ready to Classify a Bunch of Images!,stims/9086_0.png,0,0,0,0,0,29,29,57,,,180.79565396200633,180.8957947260351,0,2.044,1.0022789584472775,None,181.49799535801867,None,001,15,2020_Feb_28_1459,blockedTrials,2020.1.1,60.874932637768744,
imageBlock.csv,Get Ready to Classify a Bunch of Images!,stims/5772_9.png,0,0,0,0,0,30,30,30,,,183.86343379702885,183.9628490130417,9,1.643,1.0031328844488598,None,184.56430083501618,None,001,15,2020_Feb_28_1459,blockedTrials,2020.1.1,60.874932637768744,
imageBlock.csv,Get Ready to Classify a Bunch of Images!,stims/5549_5.png,0,0,0,0,0,31,31,29,,,186.54566940903896,186.64677302300697,3,4.077,0.9995770254754461,None,187.22976337600267,None,001,15,2020_Feb_28_1459,blockedTrials,2020.1.1,60.874932637768744,
imageBlock.csv,Get Ready to Classify a Bunch of Images!,stims/1742_8.png,0,0,0,0,0,32,32,14,,,191.63247781601967,191.745535871014,8,1.943,1.0010957265039906,None,192.32965092902305,None,001,15,2020_Feb_28_1459,blockedTrials,2020.1.1,60.874932637768744,
imageBlock.csv,Get Ready to Classify a Bunch of Images!,stims/5246_7.png,0,0,0,0,0,33,33,27,,,194.5962946600048,194.69552381604444,7,1.378,1.003213573480025,None,195.29624962504022,None,001,15,2020_Feb_28_1459,blockedTrials,2020.1.1,60.874932637768744,
imageBlock.csv,Get Ready to Classify a Bunch of Images!,stims/9166_6.png,0,0,0,0,0,34,34,58,,,196.9985138650518,197.11214377603028,6,1.611,1.0021876764949411,None,197.69622176099801,None,001,15,2020_Feb_28_1459,blockedTrials,2020.1.1,60.874932637768744,
imageBlock.csv,Get Ready to Classify a Bunch of Images!,stims/1709_2.png,0,0,0,0,0,35,35,13,,,199.62952101702103,199.7294999800506,2,1.094,1.002107639447786,None,200.3294574530446,None,001,15,2020_Feb_28_1459,blockedTrials,2020.1.1,60.874932637768744,
imageBlock.csv,Get Ready to Classify a Bunch of Images!,stims/7410_4.png,0,0,0,0,0,36,36,47,,,201.74846637801966,201.8627786890138,3,1.694,1.0013265924644656,None,202.4452998150373,None,001,15,2020_Feb_28_1459,blockedTrials,2020.1.1,60.874932637768744,
imageBlock.csv,Get Ready to Classify a Bunch of Images!,stims/6300_1.png,0,0,0,0,0,37,37,36,,,204.46539869904518,204.57900467101717,1,1.496,0.9998198734829202,None,205.16262151900446,None,001,15,2020_Feb_28_1459,blockedTrials,2020.1.1,60.874932637768744,
imageBlock.csv,Get Ready to Classify a Bunch of Images!,stims/1493_1.png,0,0,0,0,0,38,38,11,,,206.9820748900529,207.09521985502215,1,1.276,1.0021798184607178,None,207.67931103101,None,001,15,2020_Feb_28_1459,blockedTrials,2020.1.1,60.874932637768744,
imageBlock.csv,Get Ready to Classify a Bunch of Images!,stims/6504_7.png,0,0,0,0,0,39,39,39,,,209.27837693004403,209.37838235101663,7,1.463,0.9991165794781409,None,209.97821129701333,None,001,15,2020_Feb_28_1459,blockedTrials,2020.1.1,60.874932637768744,
imageBlock.csv,Get Ready to Classify a Bunch of Images!,stims/673_3.png,0,0,0,0,0,40,40,3,,,211.76531813800102,211.8784354030504,3,1.394,1.001386612537317,None,212.46235242905095,None,001,15,2020_Feb_28_1459,blockedTrials,2020.1.1,60.874932637768744,
imageBlock.csv,Get Ready to Classify a Bunch of Images!,stims/1650_5.png,0,0,0,0,0,41,41,12,,,214.1791640560259,214.2788467920036,5,1.529,1.0002062304411083,None,214.87902423000196,None,001,15,2020_Feb_28_1459,blockedTrials,2020.1.1,60.874932637768744,
imageBlock.csv,Get Ready to Classify a Bunch of Images!,stims/2445_6.png,0,0,0,0,0,42,42,18,,,216.7294387120055,216.84496167604811,6,1.776,1.0018068554345518,None,217.43025335902348,None,001,15,2020_Feb_28_1459,blockedTrials,2020.1.1,60.874932637768744,
imageBlock.csv,Get Ready to Classify a Bunch of Images!,stims/9291_8.png,0,0,0,0,0,43,43,59,,,219.5313477370073,219.64556500402978,0,2.245,1.0014690614771098,None,220.22901009605266,None,001,15,2020_Feb_28_1459,blockedTrials,2020.1.1,60.874932637768744,
imageBlock.csv,Get Ready to Classify a Bunch of Images!,stims/3456_3.png,0,0,0,0,0,44,44,22,,,222.79572787001962,222.8949468540377,3,1.275,1.0000275034690276,None,223.49541487003444,None,001,15,2020_Feb_28_1459,blockedTrials,2020.1.1,60.874932637768744,
imageBlock.csv,Get Ready to Classify a Bunch of Images!,stims/805_4.png,0,0,0,0,0,45,45,5,,,225.09675225103274,225.19587315403624,5,5.377,1.001154131430667,None,225.7969733850332,None,001,15,2020_Feb_28_1459,blockedTrials,2020.1.1,60.874932637768744,
imageBlock.csv,Get Ready to Classify a Bunch of Images!,stims/7433_5.png,0,0,0,0,0,46,46,48,,,231.49544345302274,231.59543092100648,5,1.562,1.0046334794606082,None,232.19601898203837,None,001,15,2020_Feb_28_1459,blockedTrials,2020.1.1,60.874932637768744,
imageBlock.csv,Get Ready to Classify a Bunch of Images!,stims/1072_0.png,0,0,0,0,0,47,47,9,,,234.07986090303166,234.1953800220508,0,1.912,0.9995488054701127,None,234.7779239290394,None,001,15,2020_Feb_28_1459,blockedTrials,2020.1.1,60.874932637768744,
imageBlock.csv,Get Ready to Classify a Bunch of Images!,stims/972_2.png,0,0,0,0,0,48,48,8,,,237.01479807804571,237.12797359202523,2,1.344,1.0003955115098506,None,237.71121252002195,None,001,15,2020_Feb_28_1459,blockedTrials,2020.1.1,60.874932637768744,
imageBlock.csv,Get Ready to Classify a Bunch of Images!,stims/2405_3.png,0,0,0,0,0,49,49,17,,,239.38140919501893,239.49526658304967,6,1.746,1.0002407025313005,None,240.07861242402578,None,001,15,2020_Feb_28_1459,blockedTrials,2020.1.1,60.874932637768744,
imageBlock.csv,Get Ready to Classify a Bunch of Images!,stims/7217_8.png,0,0,0,0,0,50,50,46,,,242.1444493040326,242.2444168610382,8,2.744,1.00205555051798,None,242.84519074403215,None,001,15,2020_Feb_28_1459,blockedTrials,2020.1.1,60.874932637768744,
imageBlock.csv,Get Ready to Classify a Bunch of Images!,stims/267_4.png,0,0,0,0,0,51,51,2,,,245.91294413805008,246.0118009840371,4,2.579,1.0026825664681382,None,246.61181861400837,None,001,15,2020_Feb_28_1459,blockedTrials,2020.1.1,60.874932637768744,
imageBlock.csv,Get Ready to Classify a Bunch of Images!,stims/2704_0.png,0,0,0,0,0,52,52,20,,,249.51170486403862,249.61173701501684,0,2.729,1.004864389426075,None,250.21173858601833,None,001,15,2020_Feb_28_1459,blockedTrials,2020.1.1,60.874932637768744,
imageBlock.csv,Get Ready to Classify a Bunch of Images!,stims/4139_5.png,0,0,0,0,0,53,53,25,,,253.26163918402744,253.35944575001486,3,4.211,1.0011919355019927,None,253.96282158704707,None,001,15,2020_Feb_28_1459,blockedTrials,2020.1.1,60.874932637768744,
imageBlock.csv,Get Ready to Classify a Bunch of Images!,stims/6075_3.png,0,0,0,0,0,54,54,32,,,258.4940715760458,258.59407099103555,3,1.614,1.0019974414608441,None,259.19401640305296,None,001,15,2020_Feb_28_1459,blockedTrials,2020.1.1,60.874932637768744,
imageBlock.csv,Get Ready to Classify a Bunch of Images!,stims/2938_2.png,0,0,0,0,0,55,55,21,,,261.12924811500125,261.24393491103547,2,1.396,1.0009784575086087,None,261.82734031701693,None,001,15,2020_Feb_28_1459,blockedTrials,2020.1.1,60.874932637768744,
imageBlock.csv,Get Ready to Classify a Bunch of Images!,stims/7088_8.png,0,0,0,0,0,56,56,45,,,263.54396427900065,263.64521391905146,8,2.645,1.0012658404302783,None,264.24426827405114,None,001,15,2020_Feb_28_1459,blockedTrials,2020.1.1,60.874932637768744,
imageBlock.csv,Get Ready to Classify a Bunch of Images!,stims/772_6.png,0,0,0,0,0,57,57,4,,,267.2113372370368,267.3103001320269,6,32.459,1.003294293419458,None,267.912414549035,277.94457513000816,001,15,2020_Feb_28_1459,blockedTrials,2020.1.1,60.874932637768744,
imageBlock.csv,Get Ready to Classify a Bunch of Images!,stims/839_2.png,0,0,0,0,0,58,58,6,,,300.69312350603286,300.7938896139967,2,2.78,1.0020226304768585,None,301.3927888490143,None,001,15,2020_Feb_28_1459,blockedTrials,2020.1.1,60.874932637768744,
imageBlock.csv,Get Ready to Classify a Bunch of Images!,stims/6149_7.png,0,0,0,0,0,59,59,34,,,304.4937868400011,304.59383892803453,7,1.979,1.0013887185486965,None,305.19378840504214,None,001,15,2020_Feb_28_1459,blockedTrials,2020.1.1,60.874932637768744,
